Folder: pySULI/notebooks/003.xrd_phase_identification_with_pymatgen.data

Note: README.md
# pySULI
Here are some stuff that I and my Science Undergraduate Laboratory Internship (SULI) students played with.

File: mix_CeO2_LaB6_wl=0.1820.xy
0.831674 42.6071
0.883373 41.5224
0.935073 40.3126
0.986773 39.3534
1.03847 38.5213
1.09017 37.6343
1.14187 37.1242
1.19357 37.0216
1.24527 37.2023
1.29697 37.3202
1.34868 37.3626
1.40038 37.3749
1.45208 37.3024
1.50378 37.264
1.55548 37.2927
1.60719 37.4894
1.65889 37.7253
1.71059 38.0036
1.7623 38.5815
1.814 38.9971
1.86571 39.5862
1.91741 40.0001
1.96912 40.3132
2.02082 40.4129
2.07253 40.5256
2.12423 40.3894
2.17594 40.0872
2.22765 39.7023
2.27936 39.165
2.33106 38.5122
2.38277 38.0246
2.43448 37.9532
2.48619 94.5767
2.5379 59.7034
2.58961 35.8124
2.64132 34.7853
2.69304 34.1418
2.74475 33.5786
2.79646 33.0911
2.84818 32.6751
2.89989 32.3652
2.9516 32.0871
3.00332 31.9003
3.05504 31.8866
3.10675 31.9992
3.15847 32.6383
3.21019 34.5995
3.26191 44.026
3.31362 304.152
3.36534 293.048
3.41706 42.0741
3.46879 33.3756
3.52051 88.231
3.57223 118.79
3.62395 29.095
3.67568 27.8631
3.7274 27.8306
3.77913 30.072
3.83085 108.596
3.88258 97.0267
3.93431 28.4597
3.98604 25.7292
4.03777 24.8687
4.0895 24.4183
4.14123 24.1626
4.19296 23.9449
4.24469 23.9728
4.29643 26.0663
4.34816 147.976
4.3999 24.9178
4.45163 23.3368
4.50337 22.9873
4.55511 22.7874
4.60685 22.5845
4.65859 22.4373
4.71033 22.3622
4.76207 22.338
4.81381 22.2636
4.86556 22.2688
4.9173 22.2833
4.96905 23.4581
5.0208 97.048
5.07254 23.256
5.12429 22.4356
5.17604 22.547
5.2278 22.8186
5.27955 23.4876
5.3313 25.1665
5.38305 33.9441
5.43481 277.958
5.48657 127.268
5.53832 29.844
5.59008 88.911
5.64184 44.8752
5.6936 22.2992
5.74537 21.4895
5.79713 21.1516
5.84889 20.9662
5.90066 20.8352
5.95243 20.7737
6.0042 20.789
6.05597 21.0193
6.10774 25.0609
6.15951 85.8128
6.21128 22.2588
6.26306 23.0734
6.31483 28.2615
6.36661 134.775
6.41839 197.413
6.47017 29.3754
6.52195 23.0334
6.57373 22.0051
6.62551 24.7549
6.6773 85.8661
6.72909 25.71
6.78087 20.7028
6.83266 20.048
6.88445 19.7698
6.93624 19.6426
6.98804 19.5572
7.03983 19.7581
7.09163 49.2251
7.14343 20.3069
7.19523 19.3793
7.24703 19.3536
7.29883 19.342
7.35063 19.3827
7.40244 19.4196
7.45424 19.8299
7.50605 52.1545
7.55786 40.1598
7.60967 20.5207
7.66149 23.7459
7.7133 88.7597
7.76512 24.5342
7.81693 20.3817
7.86875 20.1625
7.92057 60.0108
7.9724 26.7112
8.02422 19.8309
8.07605 19.7226
8.12787 19.829
8.1797 19.9396
8.23153 20.3734
8.28337 22.8388
8.3352 62.133
8.38704 100.739
8.43887 68.4451
8.49071 24.0763
8.54255 23.064
8.5944 45.064
8.64624 81.8691
8.69809 30.0998
8.74993 20.6893
8.80178 19.9755
8.85364 19.7144
8.90549 19.61
8.95734 19.5305
9.0092 20.4342
9.06106 43.4797
9.11292 19.6788
9.16478 19.5532
9.21665 19.6821
9.26851 19.9627
9.32038 20.8006
9.37225 43.812
9.42413 76.8409
9.476 88.3517
9.52788 23.6428
9.57975 20.4674
9.63163 19.7587
9.68352 19.4985
9.7354 19.3892
9.78729 19.385
9.83917 19.5066
9.89106 19.9762
9.94296 21.7665
9.99485 48.9701
10.0467 98.779
10.0986 23.1375
10.1505 20.0805
10.2024 19.4084
10.2544 19.191
10.3063 19.867
10.3582 57.937
10.4101 19.5074
10.462 18.8675
10.5139 18.8
10.5658 18.8897
10.6177 21.0932
10.6697 43.2661
10.7216 19.1893
10.7735 19.151
10.8254 19.6976
10.8774 24.678
10.9293 59.5668
10.9812 23.5656
11.0332 19.5443
11.0851 19.2538
11.1371 19.2737
11.189 19.9374
11.2409 35.2769
11.2929 20.5199
11.3448 22.9435
11.3968 65.5128
11.4488 65.3087
11.5007 47.743
11.5527 35.9804
11.6046 48.3236
11.6566 21.206
11.7086 19.6908
11.7605 24.0479
11.8125 23.8371
11.8645 18.9591
11.9165 18.8053
11.9684 18.7648
12.0204 18.8498
12.0724 19.0745
12.1244 19.8263
12.1764 29.258
12.2284 58.3687
12.2804 22.3986
12.3324 23.6956
12.3844 18.9507
12.4364 18.8468
12.4884 18.9265
12.5404 21.4024
12.5924 23.261
12.6444 37.4023
12.6964 31.381
12.7484 21.4426
12.8005 56.444
12.8525 28.5801
12.9045 19.3474
12.9565 18.8068
13.0086 18.9284
13.0606 30.2941
13.1126 18.9693
13.1647 18.5453
13.2167 18.5391
13.2688 18.5408
13.3208 19.2301
13.3729 27.1946
13.4249 21.1509
13.477 19.1149
13.529 34.5661
13.5811 20.8632
13.6332 19.1088
13.6852 19.5579
13.7373 22.9142
13.7894 64.141
13.8415 28.7725
13.8935 23.1169
13.9456 34.4902
13.9977 20.2397
14.0498 19.211
14.1019 18.9532
14.154 19.0084
14.2061 20.8308
14.2582 20.1097
14.3103 19.3064
14.3624 19.9354
14.4145 26.8631
14.4666 74.0919
14.5187 24.5457
14.5708 19.9668
14.6229 20.068
14.6751 32.2685
14.7272 19.9069
14.7793 21.5216
14.8315 52.4532
14.8836 46.1899
14.9357 20.8866
14.9879 19.1429
15.04 18.8471
15.0922 25.1273
15.1443 18.6813
15.1965 18.2923
15.2486 18.3872
15.3008 20.7429
15.3529 18.7766
15.4051 18.8064
15.4573 22.7384
15.5095 30.763
15.5616 19.2569
15.6138 19.1971
15.6474 19.0782

File: unknown_xrd_1_wl=0.1824Angst.xy
1.4991e+00 1.9785e-01
1.5531e+00 1.9740e-01
1.6072e+00 2.3345e-01
1.6613e+00 2.5944e-01
1.7153e+00 2.8155e-01
1.7694e+00 3.2326e-01
1.8235e+00 3.5247e-01
1.8775e+00 4.0484e-01
1.9316e+00 4.8001e-01
1.9857e+00 5.1754e-01
2.0397e+00 5.8808e-01
2.0938e+00 6.6512e-01
2.1478e+00 7.3994e-01
2.2019e+00 8.1203e-01
2.2560e+00 8.6778e-01
2.3100e+00 9.6518e-01
2.3641e+00 1.0308e+00
2.4182e+00 1.0553e+00
2.4723e+00 1.0995e+00
2.5263e+00 1.0964e+00
2.5804e+00 1.0966e+00
2.6345e+00 1.0660e+00
2.6885e+00 1.0100e+00
2.7426e+00 9.5997e-01
2.7967e+00 9.0184e-01
2.8508e+00 8.6262e-01
2.9048e+00 8.0774e-01
2.9589e+00 1.0222e+00
3.0130e+00 4.5434e+00
3.0671e+00 7.4847e-01
3.1211e+00 6.4315e-01
3.1752e+00 6.0674e-01
3.2293e+00 5.6619e-01
3.2834e+00 5.3072e-01
3.3374e+00 5.2125e-01
3.3915e+00 4.9234e-01
3.4456e+00 4.9691e-01
3.4997e+00 5.0006e-01
3.5538e+00 4.8135e-01
3.6079e+00 4.7233e-01
3.6619e+00 4.6912e-01
3.7160e+00 4.6920e-01
3.7701e+00 4.4862e-01
3.8242e+00 4.2354e-01
3.8783e+00 4.0593e-01
3.9324e+00 3.8654e-01
3.9865e+00 4.1419e-01
4.0405e+00 6.0377e-01
4.0946e+00 1.0047e+01
4.1487e+00 6.1751e-01
4.2028e+00 3.9854e-01
4.2569e+00 4.0129e-01
4.3110e+00 4.3896e-01
4.3651e+00 1.1037e+00
4.4192e+00 1.1288e+00
4.4733e+00 5.1885e-01
4.5274e+00 7.7013e-01
4.5815e+00 5.4441e+00
4.6356e+00 1.9084e+01
4.6897e+00 1.1713e+01
4.7438e+00 9.6766e-01
4.7979e+00 6.4412e-01
4.8520e+00 6.9555e-01
4.9061e+00 9.0582e-01
4.9602e+00 3.9760e+00
5.0143e+00 7.9660e+01
5.0684e+00 2.7382e+00
5.1226e+00 1.0801e+01
5.1767e+00 2.2713e+00
5.2308e+00 6.6965e-01
5.2849e+00 9.0123e-01
5.3390e+00 5.5618e+00
5.3931e+00 5.5631e-01
5.4472e+00 4.6589e-01
5.5014e+00 4.4157e-01
5.5555e+00 4.4864e-01
5.6096e+00 4.7348e-01
5.6637e+00 5.6180e-01
5.7178e+00 1.2503e+00
5.7720e+00 2.2109e+01
5.8261e+00 3.3639e+00
5.8802e+00 9.5800e-01
5.9344e+00 7.2487e+00
5.9885e+00 2.5321e+00
6.0426e+00 1.0815e+00
6.0968e+00 4.6161e-01
6.1509e+00 4.1237e-01
6.2050e+00 4.1823e-01
6.2592e+00 4.1379e-01
6.3133e+00 4.0665e-01
6.3674e+00 4.2861e-01
6.4216e+00 4.6026e-01
6.4757e+00 7.6733e-01
6.5299e+00 1.1708e+01
6.5840e+00 1.6850e+00
6.6382e+00 1.1802e+00
6.6923e+00 4.9291e-01
6.7465e+00 6.1808e-01
6.8006e+00 4.9336e-01
6.8548e+00 4.8076e-01
6.9089e+00 1.3673e+00
6.9631e+00 5.3322e-01
7.0172e+00 4.7458e-01
7.0714e+00 5.1551e-01
7.1255e+00 4.8598e-01
7.1797e+00 4.9861e-01
7.2339e+00 5.0502e-01
7.2880e+00 5.1355e-01
7.3422e+00 5.4689e-01
7.3964e+00 7.0911e-01
7.4505e+00 4.9706e+00
7.5047e+00 1.2743e+00
7.5589e+00 3.3248e+00
7.6131e+00 7.5364e+00
7.6672e+00 8.1396e-01
7.7214e+00 5.8811e-01
7.7756e+00 5.6117e-01
7.8298e+00 6.9958e-01
7.8840e+00 5.5515e-01
7.9382e+00 5.7186e-01
7.9923e+00 6.4845e-01
8.0465e+00 1.2571e+00
8.1007e+00 5.3091e+00
8.1549e+00 3.9209e+00
8.2091e+00 5.9318e+00
8.2633e+00 8.3551e-01
8.3175e+00 6.6574e-01
8.3717e+00 1.3969e+00
8.4259e+00 2.5100e+00
8.4801e+00 1.8847e+00
8.5343e+00 5.9853e-01
8.5885e+00 5.4960e-01
8.6427e+00 5.3953e-01
8.6970e+00 5.3790e-01
8.7512e+00 6.4557e-01
8.8054e+00 1.7497e+00
8.8596e+00 4.3903e+00
8.9138e+00 6.1346e-01
8.9680e+00 4.9833e-01
9.0223e+00 5.6592e-01
9.0765e+00 5.0623e-01
9.1307e+00 9.7884e-01
9.1849e+00 6.6786e-01
9.2392e+00 3.8805e+00
9.2934e+00 1.6227e+00
9.3477e+00 3.9138e+00
9.4019e+00 1.3287e+00
9.4561e+00 6.0386e-01
9.5104e+00 1.3286e+00
9.5646e+00 3.3169e+00
9.6189e+00 9.8982e+00
9.6731e+00 1.2644e+00
9.7274e+00 1.0356e+00
9.7816e+00 6.0087e-01
9.8359e+00 2.4065e+00
9.8901e+00 1.0644e+00
9.9444e+00 5.6488e-01
9.9987e+00 1.7156e+00
1.0053e+01 3.8391e+00
1.0107e+01 5.6298e-01
1.0161e+01 4.5952e-01
1.0216e+01 4.6180e-01
1.0270e+01 1.3783e+00
1.0324e+01 8.6843e-01
1.0379e+01 5.2736e-01
1.0433e+01 1.3979e+00
1.0487e+01 2.5334e+00
1.0541e+01 5.6822e-01
1.0596e+01 4.4722e-01
1.0650e+01 8.9106e-01
1.0704e+01 5.8086e-01
1.0759e+01 4.1195e-01
1.0813e+01 3.8540e-01
1.0867e+01 3.9245e-01
1.0921e+01 3.7820e-01
1.0976e+01 3.7376e-01
1.1030e+01 3.7002e-01
1.1084e+01 4.0939e-01
1.1139e+01 4.1889e-01
1.1193e+01 6.7273e-01
1.1247e+01 4.1536e-01
1.1302e+01 3.8937e-01
1.1356e+01 4.1723e-01
1.1410e+01 7.0316e-01
1.1465e+01 8.1094e-01
1.1519e+01 1.2769e+00
1.1573e+01 2.3335e+00
1.1628e+01 3.1401e+00
1.1682e+01 7.3409e-01
1.1736e+01 4.2391e-01
1.1791e+01 4.4997e-01
1.1845e+01 5.0091e-01
1.1899e+01 1.3428e+00
1.1954e+01 1.6637e+00
1.2008e+01 5.0242e-01
1.2062e+01 4.8748e-01
1.2117e+01 4.1504e-01
1.2171e+01 6.0001e-01
1.2225e+01 8.9306e-01
1.2280e+01 5.6055e-01
1.2334e+01 1.2331e+00
1.2389e+01 2.4802e+00
1.2443e+01 8.0978e-01
1.2497e+01 5.2601e-01
1.2552e+01 6.1555e-01
1.2606e+01 3.6058e+00
1.2660e+01 1.9898e+00
1.2715e+01 5.5609e-01
1.2769e+01 4.9740e-01
1.2824e+01 5.4202e-01
1.2878e+01 7.6019e-01
1.2932e+01 2.5630e+00
1.2987e+01 2.8565e+00
1.3041e+01 8.2393e-01
1.3096e+01 1.5045e+00
1.3150e+01 1.0370e+00
1.3205e+01 1.0537e+00
1.3259e+01 8.1864e-01
1.3313e+01 1.0813e+00
1.3368e+01 4.5751e-01
1.3422e+01 4.0672e-01
1.3477e+01 4.3164e-01
1.3531e+01 4.1565e-01
1.3586e+01 3.9923e-01
1.3640e+01 3.9847e-01
1.3694e+01 6.4249e-01
1.3749e+01 5.1985e-01
1.3803e+01 5.3403e-01
1.3858e+01 1.5811e+00
1.3912e+01 8.6157e-01
1.3967e+01 5.1476e-01
1.4021e+01 9.7632e-01
1.4076e+01 9.4559e-01
1.4130e+01 5.9228e-01
1.4185e+01 2.0738e+00
1.4239e+01 1.0108e+00
1.4293e+01 4.3555e-01
1.4348e+01 3.9054e-01
1.4402e+01 3.8759e-01
1.4457e+01 4.1099e-01
1.4511e+01 7.6411e-01
1.4566e+01 1.0922e+00
1.4620e+01 4.7586e-01
1.4675e+01 4.0675e-01
1.4729e+01 4.7570e-01
1.4784e+01 7.2307e-01
1.4838e+01 6.8892e-01
1.4893e+01 4.8597e-01
1.4947e+01 4.9242e-01
1.5002e+01 6.0735e-01
1.5057e+01 2.0267e+00
1.5111e+01 9.4951e-01
1.5166e+01 4.6953e-01
1.5220e+01 4.4831e-01
1.5275e+01 5.7834e-01
1.5329e+01 3.8017e-01
1.5384e+01 3.6967e-01
1.5438e+01 7.0562e-01
1.5493e+01 7.0225e-01
1.5547e+01 6.1728e-01
1.5602e+01 4.1807e-01
1.5657e+01 4.3830e-01
1.5711e+01 5.1617e-01
1.5766e+01 5.7665e-01
1.5820e+01 1.3051e+00
1.5875e+01 5.6955e-01
1.5929e+01 4.2617e-01
1.5984e+01 4.8443e-01
1.6039e+01 1.0588e+00
1.6093e+01 4.7521e-01
1.6148e+01 3.9358e-01
1.6202e+01 4.8193e-01
1.6257e+01 4.5675e-01
1.6312e+01 4.8194e-01
1.6366e+01 5.5546e-01
1.6421e+01 8.4868e-01
1.6475e+01 3.8745e-01
1.6530e+01 3.7258e-01
1.6585e+01 4.6505e-01
1.6639e+01 5.3336e-01
1.6694e+01 4.0912e-01
1.6749e+01 5.0110e-01
1.6803e+01 5.9086e-01
1.6858e+01 1.0073e+00

File: unknown_xrd_3_wl=0.1814Angst.xy
1.15988 31.3637
1.21431 31.3791
1.26873 31.4147
1.32316 31.2859
1.37758 30.8897
1.43201 30.2459
1.48644 29.8724
1.54086 29.4462
1.59529 29.0476
1.64972 29.7691
1.70415 28.6498
1.75858 28.4308
1.813 28.6501
1.86743 28.5252
1.92186 28.498
1.97629 28.3961
2.03072 28.2507
2.08515 27.7457
2.13959 27.4676
2.19402 27.0785
2.24845 26.361
2.30288 25.9316
2.35732 25.3407
2.41175 24.6784
2.46619 24.0723
2.52062 23.6654
2.57506 23.2793
2.62949 22.5989
2.68393 22.132
2.73837 21.7989
2.7928 21.9088
2.84724 42.6719
2.90168 27.1065
2.95612 20.3884
3.01056 19.6833
3.065 18.8445
3.11945 18.275
3.17389 17.769
3.22833 17.2201
3.28278 16.9598
3.33722 16.4665
3.39167 15.4902
3.44611 14.9418
3.50056 14.6723
3.55501 14.4095
3.60946 13.9837
3.66391 13.5044
3.71836 13.2679
3.77281 12.9104
3.82726 12.659
3.88171 12.517
3.93617 21.0288
3.99062 13.5991
4.04508 11.901
4.09953 11.5639
4.15399 24.1497
4.20845 11.2366
4.26291 10.896
4.31737 10.7366
4.37183 10.6949
4.42629 10.4441
4.48076 10.3399
4.53522 10.1652
4.58969 10.1247
4.64415 10.0588
4.69862 10.0199
4.75309 13.4936
4.80756 20.2574
4.86203 9.89691
4.9165 9.51542
4.97097 9.5619
5.02545 10.2531
5.07992 11.6493
5.1344 9.38309
5.18888 9.29821
5.24336 9.2555
5.29784 9.07216
5.35232 8.96935
5.4068 8.91767
5.46128 8.86671
5.51577 8.95536
5.57025 8.75517
5.62474 8.96853
5.67923 9.1112
5.73372 51.6173
5.78821 9.33513
5.8427 8.69697
5.8972 8.46736
5.95169 8.43
6.00619 8.4863
6.06068 8.47996
6.11518 8.45599
6.16968 8.55015
6.22419 9.0743
6.27869 61.8802
6.33319 10.6481
6.3877 10.0031
6.44221 8.90529
6.49672 9.04951
6.55123 42.7976
6.60574 8.84009
6.66025 8.32642
6.71477 11.5505
6.76928 8.77108
6.8238 8.25375
6.87832 8.23641
6.93284 8.17934
6.98737 8.19361
7.04189 8.69185
7.09642 31.7336
7.15094 9.14275
7.20547 31.4119
7.26 8.9669
7.31454 8.23823
7.36907 7.98869
7.42361 8.19245
7.47814 10.2681
7.53268 8.07417
7.58722 8.07364
7.64177 7.94723
7.69631 7.85362
7.75086 7.84756
7.8054 7.76475
7.85995 7.76009
7.9145 21.3611
7.96906 7.90863
8.02361 7.73725
8.07817 7.70129
8.13273 7.65322
8.18729 8.78958
8.24185 12.8647
8.29642 8.07266
8.35098 9.38006
8.40555 8.64758
8.46012 7.389
8.51469 7.33628
8.56926 7.37223
8.62384 9.18761
8.67842 8.90214
8.733 8.17194
8.78758 10.4548
8.84216 10.4446
8.89675 7.33582
8.95134 16.048
9.00593 7.00277
9.06052 6.93318
9.11511 6.78997
9.16971 6.77803
9.2243 11.7336
9.27891 6.81074
9.33351 6.55368
9.38811 6.64896
9.44272 10.377
9.49733 7.07728
9.55194 8.7227
9.60655 8.32192
9.66117 6.59385
9.71578 6.92446
9.7704 8.77588
9.82502 6.3534
9.87965 6.22996
9.93427 6.51866
9.9889 6.41631
10.0435 6.31957
10.0982 7.99088
10.1528 7.47682
10.2074 6.37681
10.2621 6.81222
10.3167 8.36022
10.3714 6.37675
10.426 6.19005
10.4807 6.2432
10.5353 6.33685
10.59 6.92327
10.6446 6.34253
10.6993 6.89814
10.7539 6.68986
10.8086 6.28359
10.8633 6.35334
10.9179 7.44271
10.9726 10.5728
11.0273 8.1028
11.082 6.26658
11.1366 6.26145
11.1913 6.22225
11.246 6.38298
11.3007 7.2606
11.3554 6.14071
11.4101 6.25178
11.4648 6.19732
11.5195 7.14972
11.5742 6.28224
11.6289 6.34805
11.6836 6.8017
11.7383 8.88963
11.793 6.52939
11.8477 6.69654
11.9024 11.7718
11.9571 6.96267
12.0119 12.953
12.0666 6.90946
12.1213 6.37808
12.176 6.46365
12.2308 9.35456
12.2855 6.80359
12.3402 6.39437
12.395 6.72986
12.4497 10.4479
12.5045 7.63826
12.5592 6.75459
12.614 7.7726
12.6687 6.48574
12.7235 7.95468
12.7783 7.01408
12.833 9.07435
12.8878 6.6721
12.9426 6.42107
12.9973 6.32552
13.0521 6.30073
13.1069 6.97982
13.1617 6.79276
13.2164 6.35008
13.2712 6.43635
13.326 6.56268
13.3808 7.17108
13.4356 6.68285
13.4904 8.24924
13.5452 6.83844
13.6 8.00023
13.6548 6.42109
13.7096 6.49378
13.7645 6.82045
13.8193 6.71707
13.8741 6.63543
13.9289 6.4033
13.9838 6.34078
14.0386 8.02037
14.0934 6.56614
14.1483 7.20479
14.2031 6.63363
14.2579 6.57409
14.3128 6.36607
14.3676 6.54499
14.4225 6.64793
14.4774 7.17276
14.5322 7.57207
14.5871 6.5248
14.642 7.09726
14.6968 6.80797
14.7517 7.8103
14.8066 8.33569
14.8615 6.96682
14.9163 6.73223
14.9712 7.21315
15.0261 7.94726
15.081 7.38476
15.1359 6.60314
15.1908 6.8755
15.2457 7.35252
15.3006 6.85715
15.3555 6.94564
15.4105 6.66667
15.4654 6.60337
15.5203 6.69644
15.5752 7.20143
15.6302 6.82616
15.6851 7.54984
15.74 7.20195
15.795 7.9924
15.8499 7.63762
15.9049 7.95993
15.9598 7.84671
16.0148 7.00053
16.0697 7.22121
16.1247 7.75943
16.1797 7.2541
16.2346 6.30432
16.2896 6.98763
16.3446 7.01543
16.3996 7.71698
16.4546 8.491
16.5096 8.17676
16.5645 7.38013
16.6195 6.0376
16.6745 7.52855
16.7296 5.73844
16.7649 7.78099