Folder: pySULI/notebooks/example_data/xrd_phase_identification

Note: README.md
# pySULI
Here are some stuff that I and my Science Undergraduate Laboratory Internship (SULI) students played with.

File: CeO2_wl=0.1820.xy
0.831674 23.6875
0.883373 23.0798
0.935073 22.518
0.986773 22.1123
1.03847 21.7423
1.09017 21.2357
1.14187 20.9937
1.19357 20.9063
1.24527 21.0402
1.29697 21.0243
1.34868 20.9747
1.40038 20.9357
1.45208 20.8068
1.50378 20.6866
1.55548 20.5719
1.60719 20.5202
1.65889 20.4525
1.71059 20.3283
1.7623 20.4346
1.814 20.4199
1.86571 20.4766
1.91741 20.4488
1.96912 20.403
2.02082 20.2784
2.07253 20.2819
2.12423 20.1714
2.17594 20.017
2.22765 19.9424
2.27936 19.7553
2.33106 19.5053
2.38277 19.367
2.43448 19.211
2.48619 18.914
2.5379 18.8754
2.58961 18.7826
2.64132 18.5882
2.69304 18.4695
2.74475 18.3618
2.79646 18.2796
2.84818 18.2069
2.89989 18.1849
2.9516 18.1801
3.00332 18.2698
3.05504 18.5151
3.10675 18.8416
3.15847 19.7617
3.21019 21.9305
3.26191 31.5971
3.31362 291.917
3.36534 280.943
3.41706 29.9592
3.46879 20.5946
3.52051 18.202
3.57223 17.2475
3.62395 16.7747
3.67568 16.621
3.7274 16.965
3.77913 19.4448
3.83085 98.1911
3.88258 86.7566
3.93431 18.3059
3.98604 15.6926
4.03777 14.8967
4.0895 14.4891
4.14123 14.2832
4.19296 14.0475
4.24469 13.9314
4.29643 13.8062
4.34816 13.6937
4.3999 13.5622
4.45163 13.5445
4.50337 13.4273
4.55511 13.3431
4.60685 13.2269
4.65859 13.2003
4.71033 13.1671
4.76207 13.2022
4.81381 13.1755
4.86556 13.1568
4.9173 13.1399
4.96905 13.1525
5.0208 13.2455
5.07254 13.3214
5.12429 13.458
5.17604 13.7002
5.2278 14.0663
5.27955 14.8031
5.3313 16.5461
5.38305 25.3602
5.43481 269.411
5.48657 118.685
5.53832 20.6814
5.59008 15.5579
5.64184 14.1635
5.6936 13.6161
5.74537 13.251
5.79713 13.0711
5.84889 12.9931
5.90066 12.9195
5.95243 12.8935
6.0042 12.9054
6.05597 13.029
6.10774 13.1586
6.15951 13.4461
6.21128 13.988
6.26306 15.3481
6.31483 20.6376
6.36661 127.244
6.41839 189.925
6.47017 21.9168
6.52195 15.5787
6.57373 14.596
6.62551 17.3641
6.6773 78.5288
6.72909 18.3693
6.78087 13.3574
6.83266 12.7156
6.88445 12.4229
6.93624 12.2901
6.98804 12.1858
7.03983 12.0953
7.09163 12.0337
7.14343 12.0087
7.19523 11.9707
7.24703 11.9685
7.29883 11.9602
7.35063 11.986
7.40244 11.9553
7.45424 12.0101
7.50605 12.0846
7.55786 12.2964
7.60967 12.7706
7.66149 16.269
7.7133 81.3589
7.76512 17.1274
7.81693 12.8978
7.86875 12.3528
7.92057 12.2625
7.9724 12.216
8.02422 12.2573
8.07605 12.3041
8.12787 12.4504
8.1797 12.5805
8.23153 12.9414
8.28337 13.7678
8.3352 17.3704
8.38704 93.1168
8.43887 61.1247
8.49071 16.7843
8.54255 15.7977
8.5944 37.8341
8.64624 74.5401
8.69809 15.8383
8.74993 13.3391
8.80178 12.7416
8.85364 12.4911
8.90549 12.3597
8.95734 12.249
9.0092 12.2379
9.06106 12.2216
9.11292 12.1842
9.16478 12.3057
9.21665 12.4487
9.26851 12.7115
9.32038 13.3459
9.37225 15.8999
9.42413 59.7586
9.476 81.0323
9.52788 16.4772
9.57975 13.3584
9.63163 12.6697
9.68352 12.4395
9.7354 12.3371
9.78729 12.3392
9.83917 12.4723
9.89106 12.955
9.94296 14.7325
9.99485 41.7652
10.0467 83.1222
10.0986 15.9488
10.1505 13.017
10.2024 12.3398
10.2544 12.0686
10.3063 11.9185
10.3582 11.824
10.4101 11.7936
10.462 11.7808
10.5139 11.7452
10.5658 11.788
10.6177 11.8
10.6697 11.8438
10.7216 11.9524
10.7735 12.1358
10.8254 12.7185
10.8774 17.6676
10.9293 47.002
10.9812 14.3848
11.0332 12.5804
11.0851 12.332
11.1371 12.333
11.189 12.4613
11.2409 12.7448
11.2929 13.4073
11.3448 16.0143
11.3968 58.5956
11.4488 58.2083
11.5007 17.0048
11.5527 26.6905
11.6046 41.4094
11.6566 14.3407
11.7086 12.8192
11.7605 12.3797
11.8125 12.267
11.8645 12.1464
11.9165 12.0492
11.9684 12.0443
12.0204 12.1387
12.0724 12.3764
12.1244 13.118
12.1764 22.5652
12.2284 51.6469
12.2804 14.3964
12.3324 12.5505
12.3844 12.183
12.4364 12.0833
12.4884 12.1363
12.5404 12.3645
12.5924 13.4935
12.6444 30.5549
12.6964 24.5126
12.7484 14.4029
12.8005 31.7459
12.8525 17.0673
12.9045 12.4183
12.9565 11.9397
13.0086 11.8654
13.0606 11.7194
13.1126 11.7359
13.1647 11.7282
13.2167 11.75
13.2688 11.756
13.3208 12.4202
13.3729 20.3815
13.4249 14.2919
13.477 12.0762
13.529 11.966
13.5811 11.9902
13.6332 12.1832
13.6852 12.6686
13.7373 15.1346
13.7894 52.0707
13.8415 21.8732
13.8935 16.2966
13.9456 27.6937
13.9977 13.437
14.0498 12.4005
14.1019 12.1631
14.154 12.1877
14.2061 12.084
14.2582 12.2115
14.3103 12.4852
14.3624 13.0867
14.4145 18.031
14.4666 58.3324
14.5187 17.6058
14.5708 13.1488
14.6229 12.6192
14.6751 12.4793
14.7272 12.8648
14.7793 14.72
14.8315 45.4637
14.8836 30.0929
14.9357 13.6742
14.9879 12.4159
15.04 11.986
15.0922 11.8055
15.1443 11.7144
15.1965 11.5994
15.2486 11.6649
15.3008 11.5876
15.3529 11.8457
15.4051 12.0394
15.4573 15.7146
15.5095 13.2708
15.5616 12.0245
15.6138 12.1761
15.6474 12.2784

File: unknown_xrd_2_wl=0.1824Angst.xy
1.2492e+00 1.2646e-01
1.2857e+00 1.0077e-01
1.3223e+00 1.0009e-01
1.3589e+00 1.0721e-01
1.3955e+00 9.8965e-02
1.4321e+00 1.0564e-01
1.4687e+00 1.1930e-01
1.5052e+00 1.1791e-01
1.5418e+00 1.0212e-01
1.5784e+00 1.0826e-01
1.6150e+00 1.0564e-01
1.6516e+00 1.0063e-01
1.6882e+00 9.9633e-02
1.7247e+00 1.1219e-01
1.7613e+00 1.1217e-01
1.7979e+00 1.0403e-01
1.8345e+00 1.1974e-01
1.8711e+00 1.2614e-01
1.9077e+00 1.0591e-01
1.9442e+00 1.2284e-01
1.9808e+00 1.2868e-01
2.0174e+00 1.1816e-01
2.0540e+00 1.1919e-01
2.0906e+00 1.0846e-01
2.1272e+00 1.2188e-01
2.1638e+00 1.2822e-01
2.2003e+00 1.1442e-01
2.2369e+00 1.0927e-01
2.2735e+00 1.2265e-01
2.3101e+00 1.0989e-01
2.3467e+00 1.3086e-01
2.3833e+00 1.2356e-01
2.4199e+00 1.2459e-01
2.4565e+00 1.1974e-01
2.4931e+00 1.1599e-01
2.5296e+00 1.3184e-01
2.5662e+00 1.3326e-01
2.6028e+00 1.2201e-01
2.6394e+00 1.2741e-01
2.6760e+00 1.2422e-01
2.7126e+00 1.2748e-01
2.7492e+00 1.7325e-01
2.7858e+00 1.5562e-01
2.8224e+00 1.2141e+00
2.8590e+00 5.5658e-01
2.8955e+00 1.3787e-01
2.9321e+00 1.2305e-01
2.9687e+00 1.3527e-01
3.0053e+00 1.6682e-01
3.0419e+00 1.4925e-01
3.0785e+00 1.2422e-01
3.1151e+00 1.3696e-01
3.1517e+00 1.4412e-01
3.1883e+00 1.9252e-01
3.2249e+00 1.7606e-01
3.2615e+00 1.3786e-01
3.2981e+00 1.4705e-01
3.3347e+00 1.4203e-01
3.3713e+00 1.3518e-01
3.4079e+00 1.6103e-01
3.4445e+00 1.9389e-01
3.4811e+00 2.3120e-01
3.5177e+00 3.2989e-01
3.5542e+00 3.5764e-01
3.5908e+00 1.6634e-01
3.6274e+00 1.4740e-01
3.6640e+00 1.4485e-01
3.7006e+00 1.4722e-01
3.7372e+00 1.6353e-01
3.7738e+00 1.6727e-01
3.8104e+00 1.9201e-01
3.8470e+00 1.3166e+00
3.8836e+00 6.3868e+00
3.9202e+00 2.5812e-01
3.9568e+00 1.6508e-01
3.9934e+00 1.5242e-01
4.0301e+00 1.6878e-01
4.0667e+00 2.2693e-01
4.1033e+00 2.9958e-01
4.1399e+00 5.4012e+00
4.1765e+00 7.8984e-01
4.2131e+00 1.8849e-01
4.2497e+00 1.6662e-01
4.2863e+00 1.7262e-01
4.3229e+00 1.5853e-01
4.3595e+00 1.4459e-01
4.3961e+00 1.4301e-01
4.4327e+00 1.4713e-01
4.4693e+00 1.6047e-01
4.5059e+00 1.8399e-01
4.5425e+00 2.0331e-01
4.5791e+00 2.3491e-01
4.6158e+00 1.7920e-01
4.6524e+00 1.6554e-01
4.6890e+00 1.7854e-01
4.7256e+00 1.4484e+00
4.7622e+00 3.6518e-01
4.7988e+00 1.5982e-01
4.8354e+00 1.8739e-01
4.8720e+00 1.7318e-01
4.9086e+00 1.5436e-01
4.9453e+00 1.4281e-01
4.9819e+00 1.9493e-01
5.0185e+00 2.7923e-01
5.0551e+00 1.6990e-01
5.0917e+00 1.5897e-01
5.1283e+00 1.5414e-01
5.1650e+00 1.4855e-01
5.2016e+00 1.4559e-01
5.2382e+00 1.5915e-01
5.2748e+00 1.6078e-01
5.3114e+00 1.5102e-01
5.3480e+00 1.4810e-01
5.3847e+00 1.4228e-01
5.4213e+00 1.3848e-01
5.4579e+00 1.4772e-01
5.4945e+00 1.4854e-01
5.5312e+00 1.4122e-01
5.5678e+00 1.4520e-01
5.6044e+00 1.6794e-01
5.6410e+00 2.9437e-01
5.6777e+00 4.7278e+00
5.7143e+00 2.9264e-01
5.7509e+00 1.7290e-01
5.7875e+00 1.7005e-01
5.8242e+00 1.4802e-01
5.8608e+00 1.4658e-01
5.8974e+00 1.4293e-01
5.9340e+00 1.5957e-01
5.9707e+00 1.5337e-01
6.0073e+00 1.5355e-01
6.0439e+00 1.6140e-01
6.0806e+00 1.6373e-01
6.1172e+00 2.5069e-01
6.1538e+00 2.1688e+00
6.1905e+00 1.6461e+00
6.2271e+00 1.8959e-01
6.2637e+00 1.5298e-01
6.3004e+00 1.6152e-01
6.3370e+00 1.5852e-01
6.3736e+00 1.8777e-01
6.4103e+00 1.7564e-01
6.4469e+00 1.6723e-01
6.4836e+00 3.0494e-01
6.5202e+00 6.4367e-01
6.5568e+00 7.0382e-01
6.5935e+00 1.7198e-01
6.6301e+00 1.5441e-01
6.6668e+00 1.4207e-01
6.7034e+00 1.4145e-01
6.7400e+00 1.5755e-01
6.7767e+00 1.5310e-01
6.8133e+00 1.5127e-01
6.8500e+00 1.6567e-01
6.8866e+00 1.5807e-01
6.9233e+00 1.5283e-01
6.9599e+00 1.6730e-01
6.9966e+00 2.6113e-01
7.0332e+00 4.1348e+00
7.0699e+00 4.7635e-01
7.1065e+00 1.7821e-01
7.1432e+00 2.0582e-01
7.1798e+00 2.1836e+00
7.2165e+00 8.0345e-01
7.2531e+00 1.7834e-01
7.2898e+00 1.6633e-01
7.3264e+00 1.6237e-01
7.3631e+00 1.5933e-01
7.3997e+00 1.8593e-01
7.4364e+00 1.4393e-01
7.4731e+00 1.3954e-01
7.5097e+00 1.4075e-01
7.5464e+00 1.4166e-01
7.5830e+00 1.4269e-01
7.6197e+00 1.5124e-01
7.6564e+00 1.3834e-01
7.6930e+00 1.3945e-01
7.7297e+00 2.3991e-01
7.7663e+00 3.4080e-01
7.8030e+00 1.6242e-01
7.8397e+00 1.4615e-01
7.8763e+00 1.6118e-01
7.9130e+00 1.5314e-01
7.9497e+00 2.5295e-01
7.9863e+00 1.4355e+00
8.0230e+00 3.1927e-01
8.0597e+00 1.5422e-01
8.0964e+00 1.4734e-01
8.1330e+00 1.4993e-01
8.1697e+00 1.6298e-01
8.2064e+00 1.5773e-01
8.2430e+00 1.5152e-01
8.2797e+00 2.6904e-01
8.3164e+00 8.4772e-01
8.3531e+00 1.6171e-01
8.3898e+00 1.4278e-01
8.4264e+00 1.3983e-01
8.4631e+00 1.4344e-01
8.4998e+00 2.1590e-01
8.5365e+00 3.2718e-01
8.5732e+00 1.4580e-01
8.6098e+00 2.5379e-01
8.6465e+00 1.6881e-01
8.6832e+00 1.5748e-01
8.7199e+00 1.5293e-01
8.7566e+00 2.0438e-01
8.7933e+00 8.1358e-01
8.8300e+00 1.8244e-01
8.8666e+00 1.5261e-01
8.9033e+00 1.5504e-01
8.9400e+00 1.5255e-01
8.9767e+00 3.1169e-01
9.0134e+00 5.4357e-01
9.0501e+00 1.5979e-01
9.0868e+00 1.5830e-01
9.1235e+00 1.8111e-01
9.1602e+00 9.5987e-01
9.1969e+00 3.0032e-01
9.2336e+00 1.5258e-01
9.2703e+00 1.5655e-01
9.3070e+00 1.5713e-01
9.3437e+00 1.7652e-01
9.3804e+00 1.5160e-01
9.4171e+00 1.5201e-01
9.4538e+00 2.7051e-01
9.4905e+00 9.9245e-01
9.5272e+00 1.8504e-01
9.5639e+00 1.8871e-01
9.6006e+00 2.0275e-01
9.6373e+00 1.6456e-01
9.6741e+00 1.7327e-01
9.7108e+00 2.5421e-01
9.7475e+00 1.8129e-01
9.7842e+00 1.5984e-01
9.8209e+00 1.6337e-01
9.8576e+00 1.6502e-01
9.8943e+00 5.0874e-01
9.9311e+00 6.0322e-01
9.9678e+00 1.7654e-01
1.0004e+01 1.7491e-01
1.0041e+01 2.7556e-01
1.0078e+01 3.7966e-01
1.0115e+01 1.6527e-01
1.0151e+01 1.6105e-01
1.0188e+01 1.5241e-01
1.0225e+01 1.4625e-01
1.0262e+01 1.5032e-01
1.0298e+01 1.5387e-01
1.0335e+01 1.5161e-01
1.0372e+01 1.5050e-01
1.0408e+01 1.5047e-01
1.0445e+01 1.4481e-01
1.0482e+01 1.4328e-01
1.0519e+01 1.5465e-01
1.0555e+01 2.2290e-01
1.0592e+01 4.0599e-01
1.0629e+01 1.6250e-01
1.0666e+01 1.5408e-01
1.0702e+01 1.5492e-01
1.0739e+01 1.5522e-01
1.0776e+01 2.0782e-01
1.0813e+01 1.9902e-01
1.0849e+01 2.0433e-01
1.0886e+01 7.1061e-01
1.0923e+01 5.4361e-01
1.0960e+01 2.7075e-01
1.0996e+01 6.8380e-01
1.1033e+01 2.2060e-01
1.1070e+01 1.5983e-01
1.1107e+01 1.8406e-01
1.1143e+01 1.7765e-01
1.1180e+01 1.8737e-01
1.1217e+01 2.0327e-01
1.1244e+01 2.0157e-01

File: unknown_xrd_4_wl=0.1814Angst.xy
1.15988 28.9522
1.21431 28.8965
1.26873 28.8225
1.32316 28.5604
1.37758 28.3315
1.43201 27.9395
1.48644 27.5861
1.54086 27.3206
1.59529 27.0478
1.64972 26.6375
1.70415 26.5936
1.75858 26.5716
1.813 26.4172
1.86743 26.3908
1.92186 26.2415
1.97629 26.0281
2.03072 25.9886
2.08515 26.0083
2.13959 25.5882
2.19402 25.3853
2.24845 25.0197
2.30288 24.7897
2.35732 24.4633
2.41175 24.143
2.46619 23.9546
2.52062 23.8209
2.57506 23.7115
2.62949 23.2704
2.68393 23.3518
2.73837 23.1973
2.7928 23.1384
2.84724 23.1736
2.90168 23.1781
2.95612 23.079
3.01056 23.2271
3.065 23.0474
3.11945 23.0164
3.17389 23.0325
3.22833 22.9253
3.28278 23.0424
3.33722 27.2246
3.39167 46.4143
3.44611 22.8981
3.50056 22.968
3.55501 23.848
3.60946 23.6356
3.66391 24.4997
3.71836 25.7454
3.77281 28.3586
3.82726 38.2958
3.88171 3499.72
3.93617 51.0017
3.99062 30.6292
4.04508 27.7047
4.09953 26.1496
4.15399 23.7433
4.20845 22.5944
4.26291 22.1105
4.31737 21.8176
4.37183 22.1597
4.42629 26.3902
4.48076 500.754
4.53522 24.7651
4.58969 21.2323
4.64415 20.9432
4.69862 20.5225
4.75309 19.2629
4.80756 18.9066
4.86203 18.6433
4.9165 18.5064
4.97097 18.521
5.02545 19.1964
5.07992 19.1967
5.1344 41.5423
5.18888 27.4466
5.24336 19.575
5.29784 19.5007
5.35232 20.0239
5.4068 21.637
5.46128 35.1281
5.51577 689.033
5.57025 24.1465
5.62474 20.4092
5.67923 19.1709
5.73372 18.6434
5.78821 18.2868
5.8427 18.0459
5.8972 18.0317
5.95169 17.7936
6.00619 18.2173
6.06068 19.1336
6.11518 21.2148
6.16968 20.1186
6.22419 18.3328
6.27869 18.361
6.33319 64.4161
6.3877 22.4179
6.44221 127.391
6.49672 21.0072
6.55123 17.5809
6.60574 17.1593
6.66025 17.3068
6.71477 35.1657
6.76928 37.6401
6.8238 17.1848
6.87832 16.7202
6.93284 16.6287
6.98737 16.6971
7.04189 17.1302
7.09642 17.2455
7.15094 17.0898
7.20547 16.8773
7.26 19.1823
7.31454 64.5061
7.36907 16.9533
7.42361 17.5754
7.47814 17.2239
7.53268 16.8389
7.58722 17.1652
7.64177 17.4564
7.69631 17.7118
7.75086 23.9853
7.8054 98.1088
7.85995 17.9808
7.9145 17.205
7.96906 17.0243
8.02361 16.8602
8.07817 16.8914
8.13273 16.8846
8.18729 16.9817
8.24185 17.0205
8.29642 17.3088
8.35098 17.6721
8.40555 18.2685
8.46012 28.1222
8.51469 34.3585
8.56926 43.2283
8.62384 20.3235
8.67842 54.3037
8.733 100.075
8.78758 20.2732
8.84216 18.633
8.89675 18.6294
8.95134 49.2211
9.00593 23.4262
9.06052 17.1633
9.11511 16.8406
9.16971 16.7737
9.2243 16.5941
9.27891 16.6128
9.33351 16.7339
9.38811 16.8543
9.44272 17.043
9.49733 21.8669
9.55194 110.095
9.60655 17.8223
9.66117 16.2969
9.71578 15.8417
9.7704 15.9446
9.82502 15.6682
9.87965 15.399
9.93427 15.5743
9.9889 16.0296
10.0435 43.8389
10.0982 26.6335
10.1528 21.0532
10.2074 15.4077
10.2621 15.2034
10.3167 21.6193
10.3714 15.1628
10.426 14.7071
10.4807 14.8067
10.5353 14.5966
10.59 14.7397
10.6446 14.8581
10.6993 14.8519
10.7539 14.9355
10.8086 15.2535
10.8633 15.3377
10.9179 15.6363
10.9726 17.9827
11.0273 52.9412
11.082 16.8842
11.1366 15.9993
11.1913 16.1095
11.246 22.9811
11.3007 16.3082
11.3554 16.2894
11.4101 16.494
11.4648 17.2572
11.5195 42.9669
11.5742 29.525
11.6289 18.8062
11.6836 63.1298
11.7383 21.7489
11.793 17.257
11.8477 16.8146
11.9024 16.4692
11.9571 16.4251
12.0119 16.3681
12.0666 16.4329
12.1213 16.5269
12.176 16.7318
12.2308 17.2541
12.2855 19.6295
12.3402 62.5639
12.395 17.9721
12.4497 17.1365
12.5045 16.9594
12.5592 16.8447
12.614 17.4542
12.6687 30.5671
12.7235 20.7171
12.7783 20.2642
12.833 17.4207
12.8878 18.6405
12.9426 40.6851
12.9973 17.5748
13.0521 16.6673
13.1069 16.4505
13.1617 16.3519
13.2164 16.3367
13.2712 16.3084
13.326 16.5095
13.3808 16.4198
13.4356 19.9389
13.4904 22.9912
13.5452 17.7697
13.6 16.5994
13.6548 16.412
13.7096 16.4997
13.7645 16.5291
13.8193 16.722
13.8741 17.3865
13.9289 28.1538
13.9838 18.3385
14.0386 23.2106
14.0934 28.9737
14.1483 17.7813
14.2031 18.0917
14.2579 19.4177
14.3128 17.5054
14.3676 17.4054
14.4225 17.5562
14.4774 17.7216
14.5322 18.3749
14.5871 34.8448
14.642 27.5066
14.6968 17.9712
14.7517 17.6101
14.8066 17.6032
14.8615 17.4495
14.9163 19.0274
14.9712 23.856
15.0261 21.4305
15.081 17.4245
15.1359 17.4424
15.1908 17.2772
15.2457 17.2535
15.3006 20.4925
15.3555 17.3789
15.4105 17.1895
15.4654 17.5076
15.5203 23.4453
15.5752 17.9963
15.6302 20.4201
15.6851 17.645
15.74 17.8298
15.795 17.8682
15.8499 18.2201
15.9049 18.0508
15.9598 19.8103
16.0148 20.052
16.0697 22.4035
16.1247 27.8257
16.1797 19.0819
16.2346 20.1488
16.2896 18.9859
16.3446 20.1545
16.3996 19.673
16.4546 18.9476
16.5096 18.9699
16.5645 28.5288
16.6195 20.3451
16.6745 17.9997
16.7296 17.348
16.7649 18.7985